Folder: Spring-2024-MEMT680/Spring 2025 MEMT680

Note: Spring 2025 MEMT680/README.md
# Spring-2024-MEMT680

Batteries and Renewable Energy Storage Systems 

Graduate-level special topics course: As we work towards a renewably powered and electrified world, weÂ¿re faced with important decisions to build the right energy storage technologies. The rechargeable Li-ion battery has emerged, after half a century of development, as the key technology for electrification of transportation and the grid. This course will be seminar-style and invite students to critically assess new battery technologies in light of their promises and current limitations, and to ground our analyses in both thermodynamic truths and techno-economic realities.

Live syllabus: https://wesleychang.notion.site/MEM-T680-Batteries-and-Renewable-Energy-Storage-Systems-59426bb763dd45af959476e9f063a8f3?pvs=4 

https://termmasterschedule.drexel.edu/webtms_du/courseDetails/34643?crseNumb=T680

File: EIS example.mpt
EC-Lab ASCII FILE
Nb header lines : 70

Galvano Electrochemical Impedance Spectroscopy

Run on channel : 1 (SN 19339)
User :
Electrode connection : standard
Potential control : Ewe
Ewe ctrl range : min = -10.00 V, max = 10.00 V
Ewe,I filtering : 50 kHz
Safety Limits :
	Do not start on E overload
Channel : Grounded
Acquisition started on : 02/21/2024 07:25:28.346
Technique started on : 02/21/2024 07:25:29.706
Loaded Setting File :  NONE
Saved on :
	File : 20240221_LiFun_EIS_200kHz_1Hz_10mA_test_C01.mpr
	Directory : C:\Users\changlab\Documents\EC-Lab\Data\
	Host : 10.147.18.44
Device : SP-300 (SN 2383)
Address : USB
EC-Lab for windows v11.52 (software)
Internet server v11.52 (firmware)
Command interpretor v11.52 (firmware)
Electrode material :
Initial state :
Electrolyte :
Comments :
Cable : standard
Electrode surface area : 0.001 cm²
Characteristic mass : 0.001 g
Equivalent Weight : 0.000 g/eq.
Density : 0.000 g/cm3
Volume (V) : 0.001 cm³
Record EIS quality indicators
Cycle Definition : Charge/Discharge alternance
Mode                Single sine
Is                  0.000
unit Is             mA
vs.                 <None>
tIs (h:m:s)         0:00:0.0000
record              0
dE (mV)             0.000
dt (s)              0.000
fi                  200.000
unit fi             kHz
ff                  1.000
unit ff             Hz
Nd                  12
Points              per decade
spacing             Logarithmic
Ia/Va               Ia
Ia                  10.000
unit  Ia            mA
va pourcent         0.10
pw                  0.10
Na                  2
corr                0
E range min (V)     -10.000
E range max (V)     10.000
I Range             100 mA
Bandwidth           8
nc cycles           0
goto Ns'            0
nr cycles           0
inc. cycle          0

freq/Hz	Re(Z)/Ohm	-Im(Z)/Ohm	|Z|/Ohm	Phase(Z)/deg	time/s	<Ewe>/V	<I>/mA	Cs/µF	Cp/µF	cycle number	|Ewe|/V	|I|/A	Ns	I Range	(Q-Qo)/mA.h	THD Ewe/%	NSD Ewe/%	NSR Ewe/%	|Ewe h2|/V	|Ewe h3|/V	|Ewe h4|/V	|Ewe h5|/V	|Ewe h6|/V	|Ewe h7|/V	THD I/%	NSD I/%	NSR I/%	|I h2|/A	|I h3|/A	|I h4|/A	|I h5|/A	|I h6|/A	|I h7|/A	Re(Y)/Ohm-1	Im(Y)/Ohm-1	|Y|/Ohm-1	Phase(Y)/deg	Re(C)/nF	Im(C)/nF	|C|/nF	Phase(C)/deg	Re(M)	Im(M)	|M|	Phase(M)/deg	Re(Permittivity)	Im(Permittivity)	|Permittivity|	Phase(Permittivity)/deg	Re(Resistivity)/Ohm.cm	Im(Resistivity)/Ohm.cm	|Resistivity|/Ohm.cm	Phase(Resistivity)/deg	Re(Conductivity)/mS/cm	Im(Conductivity)/mS/cm	|Conductivity|/mS/cm	Phase(Conductivity)/deg	Tan(Delta)	Loss Angle(Delta)/deg	dq/mA.h
199998	0.343539	-0.104917	0.359203	16.9827	1.3596	3.01775	0.0101631	-7.58485	-0.647084	1	0.00351035	0.00977259	0	38	-INF	-1	-1	-1	0	0	0	0	0	0	-1	-1	-1	0	0	0	0	0	0	2.66254	-0.813143	2.78394	-16.9827	-647.084	2118.8	2215.41	-106.983	0.0000000E+000	0.0000000E+000	0.0000000E+000	106.983	0.0000000E+000	0.0000000E+000	0.0000000E+000	-106.983	0.0000000E+000	0.0000000E+000	0.0000000E+000	16.9827	0.0000000E+000	0.0000000E+000	0.0000000E+000	-16.9827	3.27438	73.0173	-INF
93267.5	0.345304	-0.0449784	0.348221	7.42142	4.6306	3.01775	0.00976997	-37.939	-0.632972	1	0.00358223	0.0102872	0	38	-INF	0.341122	0.237892	6.69398	3.809e-06	5.32767e-06	3.60257e-06	3.62394e-06	3.16315e-06	6.82546e-06	0.0604806	0.041087	0.178571	4.72953e-06	3.26043e-06	9.27264e-07	2.0122e-06	4.13558e-07	2.75767e-07	2.84768	-0.370932	2.87174	-7.42142	-632.972	4859.39	4900.44	-97.4214	0.0000000E+000	0.0000000E+000	0.0000000E+000	97.4214	0.0000000E+000	0.0000000E+000	0.0000000E+000	-97.4214	0.0000000E+000	0.0000000E+000	0.0000000E+000	7.42142	0.0000000E+000	0.0000000E+000	0.0000000E+000	-7.42142	7.6771	82.5786	NAN
43488.3	0.34755	-0.0145133	0.347852	2.39122	7.6256	3.01776	0.0113668	-252.163	-0.438959	1	0.00368683	0.0105988	0	38	-INF	0.280749	0.156908	6.50047	6.70814e-06	4.96413e-06	3.34367e-06	2.96888e-06	3.25409e-06	1.99881e-06	0.0727974	0.00521823	0.17007	3.17252e-06	5.86815e-06	1.2554e-06	3.51486e-06	6.55225e-07	7.07567e-07	2.87228	-0.119943	2.87478	-2.39122	-438.958	10511.7	10520.9	-92.3912	0.0000000E+000	0.0000000E+000	0.0000000E+000	92.3912	0.0000000E+000	0.0000000E+000	0.0000000E+000	-92.3912	0.0000000E+000	0.0000000E+000	0.0000000E+000	2.39122	0.0000000E+000	0.0000000E+000	0.0000000E+000	-2.39122	23.9469	87.6088	NAN
20282.8	0.352459	0.00239484	0.352467	-0.3893	10.4796	3.01775	0.00988923	3276.54	0.151263	1	0.00359005	0.0101855	0	38	-INF	0.377428	0.14098	6.66354	4.44083e-06	5.16341e-06	3.27365e-06	7.2787e-06	6.9081e-06	1.92451e-06	0.0930382	0.0541911	0.184636	2.76026e-06	6.81847e-06	1.21714e-06	5.81306e-06	1.311e-07	5.97143e-07	2.83708	0.019277	2.83715	0.3893	151.262	22262	22262.5	-89.6107	0.0000000E+000	0.0000000E+000	0.0000000E+000	89.6107	0.0000000E+000	0.0000000E+000	0.0000000E+000	-89.6107	0.0000000E+000	0.0000000E+000	0.0000000E+000	-0.3893	0.0000000E+000	0.0000000E+000	0.0000000E+000	0.3893	147.174	89.6107	NAN
9461.6	0.358071	0.0127791	0.358299	-2.04394	13.1946	3.01777	0.0134256	1316.31	1.67442	1	0.0038608	0.0107754	0	38	-INF	0.332394	0.104282	6.22335	4.20781e-06	5.44102e-06	6.11199e-06	2.55511e-06	4.35454e-06	4.5359e-06	0.102077	0.0489613	0.17603	2.52164e-06	7.48018e-06	9.57556e-07	7.48112e-06	9.15021e-07	9.34788e-07	2.78919	0.0995423	2.79097	2.04394	1674.41	46917.4	46947.2	-87.9561	0.0000000E+000	0.0000000E+000	0.0000000E+000	87.9561	0.0000000E+000	0.0000000E+000	0.0000000E+000	-87.9561	0.0000000E+000	0.0000000E+000	0.0000000E+000	-2.04394	0.0000000E+000	0.0000000E+000	0.0000000E+000	2.04394	28.0201	87.9561	NAN
4411.41	0.366235	0.0214081	0.36686	-3.34539	16.0306	3.01776	0.0153541	1685.25	5.73878	1	0.00397149	0.0108256	0	38	-INF	0.275968	0.188621	5.94231	4.4323e-06	3.51397e-06	4.35613e-06	2.75477e-06	5.02485e-06	5.76924e-06	0.104321	0.078449	0.188106	2.9556e-06	7.58509e-06	1.12155e-06	7.62425e-06	9.5922e-07	9.0342e-07	2.72119	0.159066	2.72584	3.34539	5738.78	98175.2	98342.7	-86.6546	0.0000000E+000	0.0000000E+000	0.0000000E+000	86.6546	0.0000000E+000	0.0000000E+000	0.0000000E+000	-86.6546	0.0000000E+000	0.0000000E+000	0.0000000E+000	-3.34539	0.0000000E+000	0.0000000E+000	0.0000000E+000	3.34539	17.1073	86.6546	NAN
2056.97	0.377693	0.0312515	0.378983	-4.73006	19.0086	3.01778	0.013897	2475.83	16.8354	1	0.00410671	0.0108361	0	38	-INF	0.403929	0.176427	5.81797	6.72559e-06	4.80324e-06	6.06475e-06	4.0633e-06	7.87584e-06	8.5177e-06	0.108408	0.0961889	0.193416	2.40625e-06	7.94021e-06	1.05515e-06	8.14243e-06	3.23693e-07	1.2313e-06	2.62965	0.217586	2.63864	4.73006	16835.4	203465	204160	-85.2699	0.0000000E+000	0.0000000E+000	0.0000000E+000	85.2699	0.0000000E+000	0.0000000E+000	0.0000000E+000	-85.2699	0.0000000E+000	0.0000000E+000	0.0000000E+000	-4.73006	0.0000000E+000	0.0000000E+000	0.0000000E+000	4.73006	12.0856	85.2699	NAN
959.076	0.395339	0.0415872	0.39752	-6.00508	21.9866	3.01777	0.0149926	3990.32	43.6726	1	0.00430877	0.0108391	0	38	-INF	0.304918	0.204867	5.50542	2.37761e-06	8.04062e-06	4.84194e-06	5.57191e-06	5.90429e-06	3.23832e-06	0.110147	0.0961684	0.192587	2.35549e-06	7.97974e-06	1.34712e-06	8.31113e-06	5.74273e-07	1.43292e-06	2.50179	0.263173	2.5156	6.00508	43672.6	415163	417454	-83.9949	0.0000000E+000	0.0000000E+000	0.0000000E+000	83.9949	0.0000000E+000	0.0000000E+000	0.0000000E+000	-83.9949	0.0000000E+000	0.0000000E+000	0.0000000E+000	-6.00508	0.0000000E+000	0.0000000E+000	0.0000000E+000	6.00508	9.50626	83.9949	NAN
447.147	0.419447	0.0521008	0.422671	-7.08061	24.9626	3.01781	0.0179663	6831.66	103.803	1	0.00458168	0.0108398	0	38	-INF	0.292441	0.157384	5.1835	4.4276e-06	6.68756e-06	4.30652e-06	3.13181e-06	5.90019e-06	5.8181e-06	0.105502	0.0058356	0.182028	2.7656e-06	7.71775e-06	1.11785e-06	7.79044e-06	3.64784e-07	1.17916e-06	2.34787	0.291635	2.36591	7.08061	103803	835686	842109	-82.9194	0.0000000E+000	0.0000000E+000	0.0000000E+000	82.9194	0.0000000E+000	0.0000000E+000	0.0000000E+000	-82.9194	0.0000000E+000	0.0000000E+000	0.0000000E+000	-7.08061	0.0000000E+000	0.0000000E+000	0.0000000E+000	7.08061	8.05069	82.9194	NAN
208.598	0.450016	0.0603144	0.45404	-7.63371	27.9386	3.01782	0.0183632	12649.9	223.225	1	0.00492203	0.0108405	0	38	-INF	0.256593	0.139791	4.90618	1.8226e-06	6.82601e-06	4.68743e-06	4.50534e-06	6.56858e-06	3.63929e-06	0.110426	0.0091281	0.183825	2.92346e-06	8.31823e-06	1.19421e-06	7.81683e-06	5.69542e-07	1.62706e-06	2.18293	0.292572	2.20245	7.63371	223225	1.66552e+06	1.68041e+06	-82.3663	0.0000000E+000	0.0000000E+000	0.0000000E+000	82.3663	0.0000000E+000	0.0000000E+000	0.0000000E+000	-82.3663	0.0000000E+000	0.0000000E+000	0.0000000E+000	-7.63371	0.0000000E+000	0.0000000E+000	0.0000000E+000	7.63371	7.46117	82.3663	NAN
97.2725	0.48422	0.0639343	0.488422	-7.52159	30.8786	3.01781	0.0179626	25591.5	438.504	1	0.00529477	0.0108406	0	38	-INF	0.322844	0.136003	4.55446	5.24093e-06	8.64844e-06	4.30856e-06	3.80302e-06	9.10735e-06	7.44048e-06	0.109481	0.00992365	0.185179	2.96364e-06	8.14363e-06	1.24719e-06	7.86484e-06	7.31189e-07	1.27259e-06	2.02979	0.268005	2.04741	7.52159	438504	3.3211e+06	3.34992e+06	-82.4784	0.0000000E+000	0.0000000E+000	0.0000000E+000	82.4784	0.0000000E+000	0.0000000E+000	0.0000000E+000	-82.4784	0.0000000E+000	0.0000000E+000	0.0000000E+000	-7.52159	0.0000000E+000	0.0000000E+000	0.0000000E+000	7.52159	7.5737	82.4784	NAN
45.3629	0.51871	0.058765	0.522028	-6.46352	33.7406	3.01783	0.0194793	59703.6	756.572	1	0.00566005	0.0108424	0	38	-INF	0.230967	0.129732	4.23262	5.21091e-06	5.70886e-06	2.28282e-06	5.63988e-06	3.97681e-06	5.68004e-06	0.110441	0.00363088	0.196495	2.58378e-06	8.22782e-06	1.34215e-06	8.08526e-06	5.46045e-07	1.20013e-06	1.90343	0.215641	1.91561	6.46352	756571	6.67815e+06	6.72087e+06	-83.5365	0.0000000E+000	0.0000000E+000	0.0000000E+000	83.5365	0.0000000E+000	0.0000000E+000	0.0000000E+000	-83.5365	0.0000000E+000	0.0000000E+000	0.0000000E+000	-6.46352	0.0000000E+000	0.0000000E+000	0.0000000E+000	6.46352	8.82685	83.5365	NAN
21.1434	0.546282	0.0486733	0.548446	-5.09157	36.5596	3.01782	0.0186315	154651	1218.06	1	0.00594672	0.0108428	0	38	-INF	0.191772	0.179375	4.00986	5.02948e-06	4.26341e-06	4.22972e-06	4.84962e-06	2.79464e-06	5.60652e-06	0.104734	0.00690998	0.197386	2.81149e-06	7.45006e-06	1.29299e-06	7.89832e-06	3.84449e-07	1.02767e-06	1.81614	0.161816	1.82333	5.09157	1.21806e+06	1.36708e+07	1.3725e+07	-84.9084	0.0000000E+000	0.0000000E+000	0.0000000E+000	84.9084	0.0000000E+000	0.0000000E+000	0.0000000E+000	-84.9084	0.0000000E+000	0.0000000E+000	0.0000000E+000	-5.09157	0.0000000E+000	0.0000000E+000	0.0000000E+000	5.09157	11.2234	84.9084	NAN
9.86427	0.566197	0.0389904	0.567538	-3.93937	39.3616	3.01783	0.0186185	413807	1953.09	1	0.00615322	0.0108419	0	38	-INF	0.194529	0.120341	3.85892	2.97166e-06	4.8772e-06	3.02514e-06	6.29276e-06	4.9737e-06	5.40128e-06	0.108471	0.0049332	0.199004	2.50709e-06	8.10892e-06	9.38498e-07	7.91268e-06	8.69868e-07	1.35942e-06	1.75783	0.121051	1.762	3.93937	1.95309e+06	2.83617e+07	2.84289e+07	-86.0606	0.0000000E+000	0.0000000E+000	0.0000000E+000	86.0606	0.0000000E+000	0.0000000E+000	0.0000000E+000	-86.0606	0.0000000E+000	0.0000000E+000	0.0000000E+000	-3.93937	0.0000000E+000	0.0000000E+000	0.0000000E+000	3.93937	14.5215	86.0606	NAN
4.601	0.580073	0.0352869	0.581145	-3.48112	43.2116	3.01783	0.0197117	980289	3614.2	1	0.00630054	0.0108416	0	38	-INF	0.153764	0.118884	1.92995	1.92249e-06	4.87923e-06	3.06181e-06	6.4068e-06	2.34371e-06	1.65456e-06	0.107316	0.0029532	0.118531	2.81644e-06	7.96274e-06	9.95955e-07	7.83006e-06	5.39696e-07	1.18614e-06	1.71757	0.104483	1.72074	3.48112	3.6142e+06	5.9413e+07	5.95228e+07	-86.5189	0.0000000E+000	0.0000000E+000	0.0000000E+000	86.5189	0.0000000E+000	0.0000000E+000	0.0000000E+000	-86.5189	0.0000000E+000	0.0000000E+000	0.0000000E+000	-3.48112	0.0000000E+000	0.0000000E+000	0.0000000E+000	3.48112	16.4388	86.5189	NAN
2.14393	0.593817	0.0384782	0.595062	-3.70747	50.1046	3.01783	0.0198838	1.92927e+06	8066.75	1	0.00645203	0.0108426	0	38	-INF	0.116416	0.0605976	1.31616	1.30498e-06	5.25592e-06	1.01853e-06	4.08472e-06	1.94666e-06	1.43056e-06	0.107343	0.00442809	0.0986346	2.6433e-06	7.89677e-06	1.04174e-06	7.96095e-06	5.82172e-07	1.13988e-06	1.67698	0.108665	1.6805	3.70747	8.06675e+06	1.24491e+08	1.24752e+08	-86.2925	0.0000000E+000	0.0000000E+000	0.0000000E+000	86.2925	0.0000000E+000	0.0000000E+000	0.0000000E+000	-86.2925	0.0000000E+000	0.0000000E+000	0.0000000E+000	-3.70747	0.0000000E+000	0.0000000E+000	0.0000000E+000	3.70747	15.4326	86.2925	NAN
1.00006	0.609287	0.048566	0.611219	-4.55739	63.6926	3.01783	0.018309	3.27689e+06	20688.6	1	0.00662696	0.0108422	0	38	-INF	0.109048	0.0641197	0.858222	1.59091e-06	4.71202e-06	9.12908e-07	4.32494e-06	1.99091e-06	9.66208e-07	0.108045	0.00271836	0.0878907	2.57814e-06	8.05195e-06	1.11727e-06	7.9206e-06	6.01919e-07	1.1759e-06	1.6309	0.129998	1.63607	4.55739	2.06886e+07	2.5955e+08	2.60373e+08	-85.4426	0.0000000E+000	0.0000000E+000	0.0000000E+000	85.4426	0.0000000E+000	0.0000000E+000	0.0000000E+000	-85.4426	0.0000000E+000	0.0000000E+000	0.0000000E+000	-4.55739	0.0000000E+000	0.0000000E+000	0.0000000E+000	4.55739	12.5456	85.4426	NAN